File: 4. Notched tensile specimen/Matrix/0.25fx.txt
	0	   0
   0.10000E-02   15.8487
   0.20000E-02   31.6973
   0.30000E-02   47.5460
   0.40000E-02   63.3947
   0.50000E-02   79.2434
   0.60000E-02   95.0920
   0.70000E-02   110.941
   0.80000E-02   126.789
   0.90000E-02   142.638
   0.10000E-01   158.487
   0.11000E-01   174.335
   0.12000E-01   190.184
   0.13000E-01   206.033
   0.14000E-01   221.881
   0.15000E-01   237.730
   0.16000E-01   253.579
   0.17000E-01   269.427
   0.18000E-01   285.276
   0.19000E-01   301.125
   0.20000E-01   316.973
   0.21000E-01   332.822
   0.22000E-01   348.671
   0.23000E-01   364.519
   0.24000E-01   380.368
   0.25000E-01   396.217
   0.26000E-01   412.065
   0.27000E-01   427.914
   0.28000E-01   443.763
   0.29000E-01   459.611
   0.30000E-01   475.460
   0.31000E-01   491.309
   0.32000E-01   507.157
   0.33000E-01   523.006
   0.34000E-01   538.855
   0.35000E-01   554.703
   0.36000E-01   570.552
   0.37000E-01   586.401
   0.38000E-01   602.249
   0.39000E-01   618.098
   0.40000E-01   633.947
   0.41000E-01   649.796
   0.42000E-01   665.644
   0.43000E-01   681.493
   0.44000E-01   697.342
   0.45000E-01   713.190
   0.46000E-01   729.039
   0.47000E-01   744.888
   0.48000E-01   760.736
   0.49000E-01   776.585
   0.50000E-01   792.434
   0.51000E-01   808.282
   0.52000E-01   824.131
   0.53000E-01   839.980
   0.54000E-01   855.828
   0.55000E-01   871.677
   0.56000E-01   887.526
   0.57000E-01   903.374
   0.58000E-01   919.223
   0.59000E-01   935.072
   0.60000E-01   950.920
   0.61000E-01   966.769
   0.62000E-01   982.618
   0.63000E-01   998.466
   0.64000E-01   1014.31
   0.65000E-01   1030.16
   0.66000E-01   1046.01
   0.67000E-01   1061.86
   0.68000E-01   1077.71
   0.69000E-01   1093.56
   0.70000E-01   1109.41
   0.71000E-01   1125.26
   0.72000E-01   1141.10
   0.73000E-01   1156.95
   0.74000E-01   1172.80
   0.75000E-01   1188.65
   0.76000E-01   1204.50
   0.77000E-01   1220.35
   0.78000E-01   1236.20
   0.79000E-01   1252.05
   0.80000E-01   1267.89
   0.81000E-01   1283.74
   0.82000E-01   1299.59
   0.83000E-01   1315.44
   0.84000E-01   1331.29
   0.85000E-01   1347.14
   0.86000E-01   1362.99
   0.87000E-01   1378.83
   0.88000E-01   1394.68
   0.89000E-01   1410.53
   0.90000E-01   1426.38
   0.91000E-01   1442.23
   0.92000E-01   1458.08
   0.93000E-01   1473.93
   0.94000E-01   1489.78
   0.95000E-01   1505.62
   0.96000E-01   1521.47
   0.97000E-01   1537.32
   0.98000E-01   1553.17
   0.99000E-01   1569.02
   0.10000       1584.87
   0.10100       1600.72
   0.10200       1616.56
   0.10300       1632.41
   0.10400       1648.26
   0.10500       1664.11
   0.10600       1679.96
   0.10700       1695.81
   0.10800       1711.66
   0.10900       1727.51
   0.11000       1743.35
   0.11100       1759.20
   0.11200       1775.05
   0.11300       1790.90
   0.11400       1806.75
   0.11500       1822.60
   0.11600       1838.45
   0.11700       1854.29
   0.11800       1870.14
   0.11900       1885.99
   0.12000       1901.84
   0.12100       1917.69
   0.12200       1933.54
   0.12300       1949.39
   0.12400       1965.24
   0.12500       1981.08
   0.12600       1996.93
   0.12700       2012.78
   0.12800       2028.63
   0.12900       2044.48
   0.13000       2060.33
   0.13100       2076.18
   0.13200       2092.02
   0.13300       2107.87
   0.13400       2123.72
   0.13500       2139.57
   0.13600       2155.42
   0.13700       2171.27
   0.13800       2187.12
   0.13900       2202.97
   0.14000       2218.81
   0.14100       2234.66
   0.14200       2250.51
   0.14300       2266.36
   0.14400       2282.21
   0.14500       2298.06
   0.14600       2313.91
   0.14700       2329.75
   0.14800       2345.60
   0.14900       2361.45
   0.15000       2377.30
   0.15100       2393.15
   0.15200       2409.00
   0.15300       2424.83
   0.15400       2440.62
   0.15500       2456.39
   0.15600       2472.16
   0.15700       2487.93
   0.15800       2503.69
   0.15900       2519.46
   0.16000       2535.23
   0.16100       2551.00
   0.16200       2566.77
   0.16300       2582.54
   0.16400       2598.31
   0.16500       2614.08
   0.16600       2629.85
   0.16700       2645.61
   0.16800       2661.38
   0.16900       2677.15
   0.17000       2692.92
   0.17100       2708.69
   0.17200       2724.46
   0.17300       2740.23
   0.17400       2756.00
   0.17500       2771.76
   0.17600       2787.53
   0.17700       2803.30
   0.17800       2819.07
   0.17900       2834.84
   0.18000       2850.61
   0.18100       2866.38
   0.18200       2882.14
   0.18300       2897.91
   0.18400       2913.68
   0.18500       2929.45
   0.18600       2945.22
   0.18700       2960.99
   0.18800       2976.75
   0.18900       2992.50
   0.19000       3008.24
   0.19100       3023.96
   0.19200       3039.63
   0.19300       3055.31
   0.19400       3070.99
   0.19500       3086.66
   0.19600       3102.34
   0.19700       3118.02
   0.19800       3133.69
   0.19900       3149.37
   0.20000       3165.05
   0.20100       3180.73
   0.20200       3196.40
   0.20300       3212.08
   0.20400       3227.76
   0.20500       3243.43
   0.20600       3259.11
   0.20700       3274.79
   0.20800       3290.46
   0.20900       3306.14
   0.21000       3321.82
   0.21100       3337.49
   0.21200       3353.17
   0.21300       3368.85
   0.21400       3384.52
   0.21500       3400.16
   0.21600       3415.67
   0.21700       3431.18
   0.21800       3446.69
   0.21900       3462.21
   0.22000       3477.72
   0.22100       3493.24
   0.22200       3508.75
   0.22300       3524.27
   0.22400       3539.78
   0.22500       3555.30
   0.22600       3570.81
   0.22700       3586.33
   0.22800       3601.84
   0.22900       3617.35
   0.23000       3632.87
   0.23100       3648.38
   0.23200       3663.90
   0.23300       3679.41
   0.23400       3694.92
   0.23500       3710.44
   0.23600       3725.92
   0.23700       3741.37
   0.23800       3756.75
   0.23900       3772.13
   0.24000       3787.51
   0.24100       3802.89
   0.24200       3818.27
   0.24300       3833.65
   0.24400       3849.04
   0.24500       3864.42
   0.24600       3879.80
   0.24700       3895.18
   0.24800       3910.56
   0.24900       3925.94
   0.25000       3941.32
   0.25100       3956.70
   0.25200       3972.08
   0.25300       3987.46
   0.25400       4002.68
   0.25500       4017.84
   0.25600       4033.01
   0.25700       4048.18
   0.25800       4063.34
   0.25900       4078.51
   0.26000       4093.68
   0.26100       4108.85
   0.26200       4124.01
   0.26300       4139.18
   0.26400       4154.35
   0.26500       4169.51
   0.26600       4184.68
   0.26700       4199.85
   0.26800       4215.02
   0.26900       4230.15
   0.27000       4245.19
   0.27100       4260.19
   0.27200       4275.19
   0.27300       4290.19
   0.27400       4305.19
   0.27500       4320.19
   0.27600       4335.19
   0.27700       4350.19
   0.27800       4365.19
   0.27900       4380.19
   0.28000       4395.19
   0.28100       4410.19
   0.28200       4425.17
   0.28300       4439.91
   0.28400       4454.64
   0.28500       4469.37
   0.28600       4484.11
   0.28700       4498.85
   0.28800       4513.59
   0.28900       4528.32
   0.29000       4543.06
   0.29100       4557.80
   0.29200       4572.54
   0.29300       4587.28
   0.29400       4602.01
   0.29500       4616.62
   0.29600       4631.16
   0.29700       4645.69
   0.29800       4660.23
   0.29900       4674.77
   0.30000       4689.31
   0.30100       4703.85
   0.30200       4718.39
   0.30300       4732.93
   0.30400       4747.47
   0.30500       4761.90
   0.30600       4776.12
   0.30700       4790.33
   0.30800       4804.56
   0.30900       4818.78
   0.31000       4833.01
   0.31100       4847.23
   0.31200       4861.46
   0.31300       4875.69
   0.31400       4889.92
   0.31500       4904.10
   0.31600       4918.09
   0.31700       4932.07
   0.31800       4946.06
   0.31900       4960.05
   0.32000       4974.05
   0.32100       4988.04
   0.32200       5002.04
   0.32300       5016.04
   0.32400       5029.79
   0.32500       5043.40
   0.32600       5057.01
   0.32700       5070.64
   0.32800       5084.26
   0.32900       5097.89
   0.33000       5111.52
   0.33100       5125.16
   0.33200       5138.74
   0.33300       5152.10
   0.33400       5165.43
   0.33500       5178.79
   0.33600       5192.15
   0.33700       5205.51
   0.33800       5218.88
   0.33900       5232.23
   0.34000       5245.19
   0.34100       5258.09
   0.34200       5271.02
   0.34300       5283.95
   0.34400       5296.89
   0.34500       5309.84
   0.34600       5322.78
   0.34700       5335.48
   0.34800       5348.09
   0.34900       5360.72
   0.35000       5373.35
   0.35100       5385.99
   0.35200       5398.63
   0.35300       5410.98
   0.35400       5423.10
   0.35500       5435.22
   0.35600       5447.36
   0.35700       5459.52
   0.35800       5471.68
   0.35900       5483.69
   0.36000       5495.48
   0.36100       5507.26
   0.36200       5519.07
   0.36300       5530.89
   0.36400       5542.69
   0.36500       5553.94
   0.36600       5565.13
   0.36700       5576.37
   0.36800       5587.64
   0.36900       5598.91
   0.37000       5609.92
   0.37100       5620.76
   0.37200       5631.61
   0.37300       5642.49
   0.37400       5653.38
   0.37500       5663.66
   0.37600       5673.83
   0.37700       5684.07
   0.37800       5694.34
   0.37900       5704.51
   0.38000       5714.31
   0.38100       5724.09
   0.38200       5733.93
   0.38300       5743.72
   0.38400       5752.82
   0.38500       5761.87
   0.38600       5771.00
   0.38700       5780.15
   0.38800       5788.84
   0.38900       5797.44
   0.39000       5806.11
   0.39100       5814.60
   0.39200       5822.43
   0.39300       5830.24
   0.39400       5838.15
   0.39500       5845.75
   0.39600       5853.06
   0.39700       5860.41
   0.39800       5867.59
   0.39900       5874.03
   0.40000       5880.45
   0.40100       5886.99
   0.40200       5892.93
   0.40300       5898.81
   0.40400       5904.80
   0.40500       5909.74
   0.40600       5914.60
   0.40700       5919.62
   0.40800       5923.94
   0.40900       5928.26
   0.41000       5932.28
   0.41100       5935.50
   0.41200       5938.79
   0.41300       5941.62
   0.41400       5944.23
   0.41500       5946.61
   0.41600       5948.01
   0.41700       5949.52
   0.41800       5950.33
   0.41900       5951.10
   0.42000       5951.02
   0.42100       5950.47
   0.42200       5949.61
   0.42300       5948.35
   0.42400       5946.48
   0.42500       5943.78
   0.42600       5940.75
   0.42700       5937.33
   0.42800       5932.92
   0.42900       5927.99
   0.43000       5922.29
   0.43100       5916.62
   0.43200       5908.92
   0.43300       5901.00
   0.43400       5892.82
   0.43500       5882.84
   0.43600       5872.41
   0.43700       5861.52
   0.43800       5848.66
   0.43900       5835.16
   0.44000       5821.69
   0.44100       5805.15
   0.44200       5788.10
   0.44300       5769.80
   0.44400       5750.17
   0.44500       5730.57
   0.44600       5705.94
   0.44700       5682.02
   0.44800       5656.12
   0.44900       5628.48
   0.45000       5597.60
   0.45100       5567.47
   0.45200       5530.68
   0.45300       5489.73
   0.45400       5452.88
   0.45500       5407.62
   0.45600       5360.28
   0.45700       5308.17
   0.45800       5245.98
   0.45900       5184.75
   0.46000       5104.84
   0.46100       4996.37
   0.46145       4629.87