File: 4. Notched tensile specimen/Matrix/0.25ux.txt
	0		0
   0.10000E-02  0.500000E-006
   0.20000E-02  0.100000E-005
   0.30000E-02  0.150000E-005
   0.40000E-02  0.200000E-005
   0.50000E-02  0.250000E-005
   0.60000E-02  0.300000E-005
   0.70000E-02  0.350000E-005
   0.80000E-02  0.400000E-005
   0.90000E-02  0.450000E-005
   0.10000E-01  0.500000E-005
   0.11000E-01  0.550000E-005
   0.12000E-01  0.600000E-005
   0.13000E-01  0.650000E-005
   0.14000E-01  0.700000E-005
   0.15000E-01  0.750000E-005
   0.16000E-01  0.800000E-005
   0.17000E-01  0.850000E-005
   0.18000E-01  0.900000E-005
   0.19000E-01  0.950000E-005
   0.20000E-01  0.100000E-004
   0.21000E-01  0.105000E-004
   0.22000E-01  0.110000E-004
   0.23000E-01  0.115000E-004
   0.24000E-01  0.120000E-004
   0.25000E-01  0.125000E-004
   0.26000E-01  0.130000E-004
   0.27000E-01  0.135000E-004
   0.28000E-01  0.140000E-004
   0.29000E-01  0.145000E-004
   0.30000E-01  0.150000E-004
   0.31000E-01  0.155000E-004
   0.32000E-01  0.160000E-004
   0.33000E-01  0.165000E-004
   0.34000E-01  0.170000E-004
   0.35000E-01  0.175000E-004
   0.36000E-01  0.180000E-004
   0.37000E-01  0.185000E-004
   0.38000E-01  0.190000E-004
   0.39000E-01  0.195000E-004
   0.40000E-01  0.200000E-004
   0.41000E-01  0.205000E-004
   0.42000E-01  0.210000E-004
   0.43000E-01  0.215000E-004
   0.44000E-01  0.220000E-004
   0.45000E-01  0.225000E-004
   0.46000E-01  0.230000E-004
   0.47000E-01  0.235000E-004
   0.48000E-01  0.240000E-004
   0.49000E-01  0.245000E-004
   0.50000E-01  0.250000E-004
   0.51000E-01  0.255000E-004
   0.52000E-01  0.260000E-004
   0.53000E-01  0.265000E-004
   0.54000E-01  0.270000E-004
   0.55000E-01  0.275000E-004
   0.56000E-01  0.280000E-004
   0.57000E-01  0.285000E-004
   0.58000E-01  0.290000E-004
   0.59000E-01  0.295000E-004
   0.60000E-01  0.300000E-004
   0.61000E-01  0.305000E-004
   0.62000E-01  0.310000E-004
   0.63000E-01  0.315000E-004
   0.64000E-01  0.320000E-004
   0.65000E-01  0.325000E-004
   0.66000E-01  0.330000E-004
   0.67000E-01  0.335000E-004
   0.68000E-01  0.340000E-004
   0.69000E-01  0.345000E-004
   0.70000E-01  0.350000E-004
   0.71000E-01  0.355000E-004
   0.72000E-01  0.360000E-004
   0.73000E-01  0.365000E-004
   0.74000E-01  0.370000E-004
   0.75000E-01  0.375000E-004
   0.76000E-01  0.380000E-004
   0.77000E-01  0.385000E-004
   0.78000E-01  0.390000E-004
   0.79000E-01  0.395000E-004
   0.80000E-01  0.400000E-004
   0.81000E-01  0.405000E-004
   0.82000E-01  0.410000E-004
   0.83000E-01  0.415000E-004
   0.84000E-01  0.420000E-004
   0.85000E-01  0.425000E-004
   0.86000E-01  0.430000E-004
   0.87000E-01  0.435000E-004
   0.88000E-01  0.440000E-004
   0.89000E-01  0.445000E-004
   0.90000E-01  0.450000E-004
   0.91000E-01  0.455000E-004
   0.92000E-01  0.460000E-004
   0.93000E-01  0.465000E-004
   0.94000E-01  0.470000E-004
   0.95000E-01  0.475000E-004
   0.96000E-01  0.480000E-004
   0.97000E-01  0.485000E-004
   0.98000E-01  0.490000E-004
   0.99000E-01  0.495000E-004
   0.10000      0.500000E-004
   0.10100      0.505000E-004
   0.10200      0.510000E-004
   0.10300      0.515000E-004
   0.10400      0.520000E-004
   0.10500      0.525000E-004
   0.10600      0.530000E-004
   0.10700      0.535000E-004
   0.10800      0.540000E-004
   0.10900      0.545000E-004
   0.11000      0.550000E-004
   0.11100      0.555000E-004
   0.11200      0.560000E-004
   0.11300      0.565000E-004
   0.11400      0.570000E-004
   0.11500      0.575000E-004
   0.11600      0.580000E-004
   0.11700      0.585000E-004
   0.11800      0.590000E-004
   0.11900      0.595000E-004
   0.12000      0.600000E-004
   0.12100      0.605000E-004
   0.12200      0.610000E-004
   0.12300      0.615000E-004
   0.12400      0.620000E-004
   0.12500      0.625000E-004
   0.12600      0.630000E-004
   0.12700      0.635000E-004
   0.12800      0.640000E-004
   0.12900      0.645000E-004
   0.13000      0.650000E-004
   0.13100      0.655000E-004
   0.13200      0.660000E-004
   0.13300      0.665000E-004
   0.13400      0.670000E-004
   0.13500      0.675000E-004
   0.13600      0.680000E-004
   0.13700      0.685000E-004
   0.13800      0.690000E-004
   0.13900      0.695000E-004
   0.14000      0.700000E-004
   0.14100      0.705000E-004
   0.14200      0.710000E-004
   0.14300      0.715000E-004
   0.14400      0.720000E-004
   0.14500      0.725000E-004
   0.14600      0.730000E-004
   0.14700      0.735000E-004
   0.14800      0.740000E-004
   0.14900      0.745000E-004
   0.15000      0.750000E-004
   0.15100      0.755000E-004
   0.15200      0.760000E-004
   0.15300      0.765000E-004
   0.15400      0.770000E-004
   0.15500      0.775000E-004
   0.15600      0.780000E-004
   0.15700      0.785000E-004
   0.15800      0.790000E-004
   0.15900      0.795000E-004
   0.16000      0.800000E-004
   0.16100      0.805000E-004
   0.16200      0.810000E-004
   0.16300      0.815000E-004
   0.16400      0.820000E-004
   0.16500      0.825000E-004
   0.16600      0.830000E-004
   0.16700      0.835000E-004
   0.16800      0.840000E-004
   0.16900      0.845000E-004
   0.17000      0.850000E-004
   0.17100      0.855000E-004
   0.17200      0.860000E-004
   0.17300      0.865000E-004
   0.17400      0.870000E-004
   0.17500      0.875000E-004
   0.17600      0.880000E-004
   0.17700      0.885000E-004
   0.17800      0.890000E-004
   0.17900      0.895000E-004
   0.18000      0.900000E-004
   0.18100      0.905000E-004
   0.18200      0.910000E-004
   0.18300      0.915000E-004
   0.18400      0.920000E-004
   0.18500      0.925000E-004
   0.18600      0.930000E-004
   0.18700      0.935000E-004
   0.18800      0.940000E-004
   0.18900      0.945000E-004
   0.19000      0.950000E-004
   0.19100      0.955000E-004
   0.19200      0.960000E-004
   0.19300      0.965000E-004
   0.19400      0.970000E-004
   0.19500      0.975000E-004
   0.19600      0.980000E-004
   0.19700      0.985000E-004
   0.19800      0.990000E-004
   0.19900      0.995000E-004
   0.20000      0.100000E-003
   0.20100      0.100500E-003
   0.20200      0.101000E-003
   0.20300      0.101500E-003
   0.20400      0.102000E-003
   0.20500      0.102500E-003
   0.20600      0.103000E-003
   0.20700      0.103500E-003
   0.20800      0.104000E-003
   0.20900      0.104500E-003
   0.21000      0.105000E-003
   0.21100      0.105500E-003
   0.21200      0.106000E-003
   0.21300      0.106500E-003
   0.21400      0.107000E-003
   0.21500      0.107500E-003
   0.21600      0.108000E-003
   0.21700      0.108500E-003
   0.21800      0.109000E-003
   0.21900      0.109500E-003
   0.22000      0.110000E-003
   0.22100      0.110500E-003
   0.22200      0.111000E-003
   0.22300      0.111500E-003
   0.22400      0.112000E-003
   0.22500      0.112500E-003
   0.22600      0.113000E-003
   0.22700      0.113500E-003
   0.22800      0.114000E-003
   0.22900      0.114500E-003
   0.23000      0.115000E-003
   0.23100      0.115500E-003
   0.23200      0.116000E-003
   0.23300      0.116500E-003
   0.23400      0.117000E-003
   0.23500      0.117500E-003
   0.23600      0.118000E-003
   0.23700      0.118500E-003
   0.23800      0.119000E-003
   0.23900      0.119500E-003
   0.24000      0.120000E-003
   0.24100      0.120500E-003
   0.24200      0.121000E-003
   0.24300      0.121500E-003
   0.24400      0.122000E-003
   0.24500      0.122500E-003
   0.24600      0.123000E-003
   0.24700      0.123500E-003
   0.24800      0.124000E-003
   0.24900      0.124500E-003
   0.25000      0.125000E-003
   0.25100      0.125500E-003
   0.25200      0.126000E-003
   0.25300      0.126500E-003
   0.25400      0.127000E-003
   0.25500      0.127500E-003
   0.25600      0.128000E-003
   0.25700      0.128500E-003
   0.25800      0.129000E-003
   0.25900      0.129500E-003
   0.26000      0.130000E-003
   0.26100      0.130500E-003
   0.26200      0.131000E-003
   0.26300      0.131500E-003
   0.26400      0.132000E-003
   0.26500      0.132500E-003
   0.26600      0.133000E-003
   0.26700      0.133500E-003
   0.26800      0.134000E-003
   0.26900      0.134500E-003
   0.27000      0.135000E-003
   0.27100      0.135500E-003
   0.27200      0.136000E-003
   0.27300      0.136500E-003
   0.27400      0.137000E-003
   0.27500      0.137500E-003
   0.27600      0.138000E-003
   0.27700      0.138500E-003
   0.27800      0.139000E-003
   0.27900      0.139500E-003
   0.28000      0.140000E-003
   0.28100      0.140500E-003
   0.28200      0.141000E-003
   0.28300      0.141500E-003
   0.28400      0.142000E-003
   0.28500      0.142500E-003
   0.28600      0.143000E-003
   0.28700      0.143500E-003
   0.28800      0.144000E-003
   0.28900      0.144500E-003
   0.29000      0.145000E-003
   0.29100      0.145500E-003
   0.29200      0.146000E-003
   0.29300      0.146500E-003
   0.29400      0.147000E-003
   0.29500      0.147500E-003
   0.29600      0.148000E-003
   0.29700      0.148500E-003
   0.29800      0.149000E-003
   0.29900      0.149500E-003
   0.30000      0.150000E-003
   0.30100      0.150500E-003
   0.30200      0.151000E-003
   0.30300      0.151500E-003
   0.30400      0.152000E-003
   0.30500      0.152500E-003
   0.30600      0.153000E-003
   0.30700      0.153500E-003
   0.30800      0.154000E-003
   0.30900      0.154500E-003
   0.31000      0.155000E-003
   0.31100      0.155500E-003
   0.31200      0.156000E-003
   0.31300      0.156500E-003
   0.31400      0.157000E-003
   0.31500      0.157500E-003
   0.31600      0.158000E-003
   0.31700      0.158500E-003
   0.31800      0.159000E-003
   0.31900      0.159500E-003
   0.32000      0.160000E-003
   0.32100      0.160500E-003
   0.32200      0.161000E-003
   0.32300      0.161500E-003
   0.32400      0.162000E-003
   0.32500      0.162500E-003
   0.32600      0.163000E-003
   0.32700      0.163500E-003
   0.32800      0.164000E-003
   0.32900      0.164500E-003
   0.33000      0.165000E-003
   0.33100      0.165500E-003
   0.33200      0.166000E-003
   0.33300      0.166500E-003
   0.33400      0.167000E-003
   0.33500      0.167500E-003
   0.33600      0.168000E-003
   0.33700      0.168500E-003
   0.33800      0.169000E-003
   0.33900      0.169500E-003
   0.34000      0.170000E-003
   0.34100      0.170500E-003
   0.34200      0.171000E-003
   0.34300      0.171500E-003
   0.34400      0.172000E-003
   0.34500      0.172500E-003
   0.34600      0.173000E-003
   0.34700      0.173500E-003
   0.34800      0.174000E-003
   0.34900      0.174500E-003
   0.35000      0.175000E-003
   0.35100      0.175500E-003
   0.35200      0.176000E-003
   0.35300      0.176500E-003
   0.35400      0.177000E-003
   0.35500      0.177500E-003
   0.35600      0.178000E-003
   0.35700      0.178500E-003
   0.35800      0.179000E-003
   0.35900      0.179500E-003
   0.36000      0.180000E-003
   0.36100      0.180500E-003
   0.36200      0.181000E-003
   0.36300      0.181500E-003
   0.36400      0.182000E-003
   0.36500      0.182500E-003
   0.36600      0.183000E-003
   0.36700      0.183500E-003
   0.36800      0.184000E-003
   0.36900      0.184500E-003
   0.37000      0.185000E-003
   0.37100      0.185500E-003
   0.37200      0.186000E-003
   0.37300      0.186500E-003
   0.37400      0.187000E-003
   0.37500      0.187500E-003
   0.37600      0.188000E-003
   0.37700      0.188500E-003
   0.37800      0.189000E-003
   0.37900      0.189500E-003
   0.38000      0.190000E-003
   0.38100      0.190500E-003
   0.38200      0.191000E-003
   0.38300      0.191500E-003
   0.38400      0.192000E-003
   0.38500      0.192500E-003
   0.38600      0.193000E-003
   0.38700      0.193500E-003
   0.38800      0.194000E-003
   0.38900      0.194500E-003
   0.39000      0.195000E-003
   0.39100      0.195500E-003
   0.39200      0.196000E-003
   0.39300      0.196500E-003
   0.39400      0.197000E-003
   0.39500      0.197500E-003
   0.39600      0.198000E-003
   0.39700      0.198500E-003
   0.39800      0.199000E-003
   0.39900      0.199500E-003
   0.40000      0.200000E-003
   0.40100      0.200500E-003
   0.40200      0.201000E-003
   0.40300      0.201500E-003
   0.40400      0.202000E-003
   0.40500      0.202500E-003
   0.40600      0.203000E-003
   0.40700      0.203500E-003
   0.40800      0.204000E-003
   0.40900      0.204500E-003
   0.41000      0.205000E-003
   0.41100      0.205500E-003
   0.41200      0.206000E-003
   0.41300      0.206500E-003
   0.41400      0.207000E-003
   0.41500      0.207500E-003
   0.41600      0.208000E-003
   0.41700      0.208500E-003
   0.41800      0.209000E-003
   0.41900      0.209500E-003
   0.42000      0.210000E-003
   0.42100      0.210500E-003
   0.42200      0.211000E-003
   0.42300      0.211500E-003
   0.42400      0.212000E-003
   0.42500      0.212500E-003
   0.42600      0.213000E-003
   0.42700      0.213500E-003
   0.42800      0.214000E-003
   0.42900      0.214500E-003
   0.43000      0.215000E-003
   0.43100      0.215500E-003
   0.43200      0.216000E-003
   0.43300      0.216500E-003
   0.43400      0.217000E-003
   0.43500      0.217500E-003
   0.43600      0.218000E-003
   0.43700      0.218500E-003
   0.43800      0.219000E-003
   0.43900      0.219500E-003
   0.44000      0.220000E-003
   0.44100      0.220500E-003
   0.44200      0.221000E-003
   0.44300      0.221500E-003
   0.44400      0.222000E-003
   0.44500      0.222500E-003
   0.44600      0.223000E-003
   0.44700      0.223500E-003
   0.44800      0.224000E-003
   0.44900      0.224500E-003
   0.45000      0.225000E-003
   0.45100      0.225500E-003
   0.45200      0.226000E-003
   0.45300      0.226500E-003
   0.45400      0.227000E-003
   0.45500      0.227500E-003
   0.45600      0.228000E-003
   0.45700      0.228500E-003
   0.45800      0.229000E-003
   0.45900      0.229500E-003
   0.46000      0.230000E-003
   0.46100      0.230500E-003
   0.46145      0.230725E-003