File: 4. Notched tensile specimen/Matrix/1fx.txt
	0	   0
   0.10000E-02   15.9843
   0.20000E-02   31.9686
   0.30000E-02   47.9529
   0.40000E-02   63.9372
   0.50000E-02   79.9215
   0.60000E-02   95.9058
   0.70000E-02   111.890
   0.80000E-02   127.874
   0.90000E-02   143.859
   0.10000E-01   159.843
   0.11000E-01   175.827
   0.12000E-01   191.812
   0.13000E-01   207.796
   0.14000E-01   223.780
   0.15000E-01   239.764
   0.16000E-01   255.749
   0.17000E-01   271.733
   0.18000E-01   287.717
   0.19000E-01   303.702
   0.20000E-01   319.686
   0.21000E-01   335.670
   0.22000E-01   351.654
   0.23000E-01   367.639
   0.24000E-01   383.623
   0.25000E-01   399.607
   0.26000E-01   415.592
   0.27000E-01   431.576
   0.28000E-01   447.560
   0.29000E-01   463.545
   0.30000E-01   479.529
   0.31000E-01   495.513
   0.32000E-01   511.497
   0.33000E-01   527.482
   0.34000E-01   543.466
   0.35000E-01   559.450
   0.36000E-01   575.435
   0.37000E-01   591.419
   0.38000E-01   607.403
   0.39000E-01   623.387
   0.40000E-01   639.372
   0.41000E-01   655.356
   0.42000E-01   671.340
   0.43000E-01   687.325
   0.44000E-01   703.309
   0.45000E-01   719.293
   0.46000E-01   735.278
   0.47000E-01   751.262
   0.48000E-01   767.246
   0.49000E-01   783.230
   0.50000E-01   799.215
   0.51000E-01   815.199
   0.52000E-01   831.183
   0.53000E-01   847.168
   0.54000E-01   863.152
   0.55000E-01   879.136
   0.56000E-01   895.120
   0.57000E-01   911.105
   0.58000E-01   927.089
   0.59000E-01   943.073
   0.60000E-01   959.058
   0.61000E-01   975.042
   0.62000E-01   991.026
   0.63000E-01   1007.01
   0.64000E-01   1022.99
   0.65000E-01   1038.98
   0.66000E-01   1054.96
   0.67000E-01   1070.95
   0.68000E-01   1086.93
   0.69000E-01   1102.92
   0.70000E-01   1118.90
   0.71000E-01   1134.88
   0.72000E-01   1150.87
   0.73000E-01   1166.85
   0.74000E-01   1182.84
   0.75000E-01   1198.82
   0.76000E-01   1214.81
   0.77000E-01   1230.79
   0.78000E-01   1246.77
   0.79000E-01   1262.76
   0.80000E-01   1278.74
   0.81000E-01   1294.73
   0.82000E-01   1310.71
   0.83000E-01   1326.70
   0.84000E-01   1342.68
   0.85000E-01   1358.66
   0.86000E-01   1374.65
   0.87000E-01   1390.63
   0.88000E-01   1406.62
   0.89000E-01   1422.60
   0.90000E-01   1438.59
   0.91000E-01   1454.57
   0.92000E-01   1470.56
   0.93000E-01   1486.54
   0.94000E-01   1502.52
   0.95000E-01   1518.51
   0.96000E-01   1534.49
   0.97000E-01   1550.48
   0.98000E-01   1566.46
   0.99000E-01   1582.45
   0.10000       1598.43
   0.10100       1614.41
   0.10200       1630.40
   0.10300       1646.38
   0.10400       1662.37
   0.10500       1678.35
   0.10600       1694.34
   0.10700       1710.32
   0.10800       1726.30
   0.10900       1742.29
   0.11000       1758.27
   0.11100       1774.26
   0.11200       1790.24
   0.11300       1806.23
   0.11400       1822.21
   0.11500       1838.19
   0.11600       1854.18
   0.11700       1870.16
   0.11800       1886.15
   0.11900       1902.13
   0.12000       1918.12
   0.12100       1934.10
   0.12200       1950.08
   0.12300       1966.07
   0.12400       1982.05
   0.12500       1998.04
   0.12600       2014.02
   0.12700       2030.01
   0.12800       2045.99
   0.12900       2061.97
   0.13000       2077.96
   0.13100       2093.94
   0.13200       2109.93
   0.13300       2125.91
   0.13400       2141.90
   0.13500       2157.88
   0.13600       2173.86
   0.13700       2189.85
   0.13800       2205.83
   0.13900       2221.82
   0.14000       2237.80
   0.14100       2253.79
   0.14200       2269.77
   0.14300       2285.75
   0.14400       2301.74
   0.14500       2317.72
   0.14600       2333.71
   0.14700       2349.69
   0.14800       2365.68
   0.14900       2381.66
   0.15000       2397.64
   0.15100       2413.63
   0.15200       2429.61
   0.15300       2445.60
   0.15400       2461.58
   0.15500       2477.57
   0.15600       2493.55
   0.15700       2509.53
   0.15800       2525.52
   0.15900       2541.50
   0.16000       2557.49
   0.16100       2573.47
   0.16200       2589.46
   0.16300       2605.44
   0.16400       2621.42
   0.16500       2637.41
   0.16600       2653.39
   0.16700       2669.38
   0.16800       2685.36
   0.16900       2701.35
   0.17000       2717.33
   0.17100       2733.31
   0.17200       2749.30
   0.17300       2765.28
   0.17400       2781.27
   0.17500       2797.25
   0.17600       2813.24
   0.17700       2829.22
   0.17800       2845.20
   0.17900       2861.19
   0.18000       2877.17
   0.18100       2893.16
   0.18200       2909.14
   0.18300       2925.13
   0.18400       2941.11
   0.18500       2957.09
   0.18600       2973.08
   0.18700       2989.06
   0.18800       3005.05
   0.18900       3021.03
   0.19000       3037.02
   0.19100       3052.85
   0.19200       3068.60
   0.19300       3084.36
   0.19400       3100.12
   0.19500       3115.88
   0.19600       3131.64
   0.19700       3147.40
   0.19800       3163.15
   0.19900       3178.91
   0.20000       3194.67
   0.20100       3210.43
   0.20200       3225.80
   0.20300       3241.13
   0.20400       3256.45
   0.20500       3271.79
   0.20600       3287.13
   0.20700       3302.46
   0.20800       3317.79
   0.20900       3333.13
   0.21000       3348.46
   0.21100       3363.80
   0.21200       3379.13
   0.21300       3394.47
   0.21400       3409.80
   0.21500       3425.14
   0.21600       3440.47
   0.21700       3455.81
   0.21800       3471.14
   0.21900       3486.48
   0.22000       3501.81
   0.22100       3517.15
   0.22200       3532.48
   0.22300       3547.82
   0.22400       3563.15
   0.22500       3578.49
   0.22600       3593.82
   0.22700       3609.16
   0.22800       3624.49
   0.22900       3639.83
   0.23000       3655.16
   0.23100       3670.49
   0.23200       3685.83
   0.23300       3701.16
   0.23400       3716.50
   0.23500       3731.83
   0.23600       3747.17
   0.23700       3762.50
   0.23800       3777.84
   0.23900       3793.17
   0.24000       3808.51
   0.24100       3823.84
   0.24200       3839.18
   0.24300       3854.51
   0.24400       3869.85
   0.24500       3885.18
   0.24600       3900.52
   0.24700       3915.85
   0.24800       3931.19
   0.24900       3946.53
   0.25000       3961.86
   0.25100       3977.20
   0.25200       3992.53
   0.25300       4007.87
   0.25400       4023.20
   0.25500       4038.54
   0.25600       4053.87
   0.25700       4069.21
   0.25800       4084.54
   0.25900       4099.88
   0.26000       4115.21
   0.26100       4130.55
   0.26200       4145.89
   0.26300       4161.22
   0.26400       4176.56
   0.26500       4191.89
   0.26600       4207.23
   0.26700       4222.56
   0.26800       4237.90
   0.26900       4253.24
   0.27000       4268.57
   0.27100       4283.91
   0.27200       4299.24
   0.27300       4314.58
   0.27400       4329.92
   0.27500       4345.17
   0.27600       4360.27
   0.27700       4375.37
   0.27800       4390.41
   0.27900       4405.44
   0.28000       4420.47
   0.28100       4435.49
   0.28200       4450.52
   0.28300       4465.55
   0.28400       4480.58
   0.28500       4495.61
   0.28600       4510.64
   0.28700       4525.67
   0.28800       4540.70
   0.28900       4555.73
   0.29000       4570.73
   0.29100       4585.63
   0.29200       4600.52
   0.29300       4615.42
   0.29400       4630.31
   0.29500       4645.20
   0.29600       4660.10
   0.29700       4674.99
   0.29800       4689.89
   0.29900       4704.78
   0.30000       4719.52
   0.30100       4734.13
   0.30200       4748.72
   0.30300       4763.33
   0.30400       4777.94
   0.30500       4792.55
   0.30600       4807.16
   0.30700       4821.76
   0.30800       4836.37
   0.30900       4850.98
   0.31000       4865.59
   0.31100       4880.20
   0.31200       4894.81
   0.31300       4909.42
   0.31400       4924.03
   0.31500       4938.64
   0.31600       4953.24
   0.31700       4967.85
   0.31800       4982.46
   0.31900       4997.06
   0.32000       5011.65
   0.32100       5026.23
   0.32200       5040.82
   0.32300       5055.40
   0.32400       5069.99
   0.32500       5084.56
   0.32600       5099.13
   0.32700       5113.70
   0.32800       5128.27
   0.32900       5142.84
   0.33000       5157.41
   0.33100       5171.98
   0.33200       5186.55
   0.33300       5201.12
   0.33400       5215.69
   0.33500       5230.26
   0.33600       5244.82
   0.33700       5259.39
   0.33800       5273.89
   0.33900       5288.18
   0.34000       5302.44
   0.34100       5316.71
   0.34200       5330.53
   0.34300       5344.11
   0.34400       5357.64
   0.34500       5371.20
   0.34600       5384.78
   0.34700       5398.36
   0.34800       5411.93
   0.34900       5425.51
   0.35000       5439.09
   0.35100       5452.66
   0.35200       5466.24
   0.35300       5479.82
   0.35400       5493.40
   0.35500       5506.97
   0.35600       5520.54
   0.35700       5534.11
   0.35800       5547.68
   0.35900       5561.24
   0.36000       5574.81
   0.36100       5588.38
   0.36200       5601.95
   0.36300       5615.52
   0.36400       5629.08
   0.36500       5642.63
   0.36600       5656.15
   0.36700       5669.71
   0.36800       5683.23
   0.36900       5696.51
   0.37000       5709.64
   0.37100       5722.83
   0.37200       5736.04
   0.37300       5749.24
   0.37400       5762.45
   0.37500       5775.65
   0.37600       5788.62
   0.37700       5801.23
   0.37800       5813.83
   0.37900       5826.47
   0.38000       5839.11
   0.38100       5851.75
   0.38200       5864.40
   0.38300       5877.04
   0.38400       5889.65
   0.38500       5902.20
   0.38600       5914.78
   0.38700       5927.36
   0.38800       5939.95
   0.38900       5952.53
   0.39000       5965.05
   0.39100       5977.46
   0.39200       5989.92
   0.39300       6002.09
   0.39400       6014.12
   0.39500       6025.42
   0.39600       6036.44
   0.39700       6047.47
   0.39800       6058.49
   0.39900       6069.53
   0.40000       6080.55
   0.40100       6091.57
   0.40200       6102.58
   0.40300       6113.59
   0.40400       6124.60
   0.40500       6135.62
   0.40600       6146.64
   0.40700       6157.66
   0.40800       6168.70
   0.40900       6179.73
   0.41000       6190.77
   0.41100       6201.82
   0.41200       6212.85
   0.41300       6223.79
   0.41400       6234.37
   0.41500       6244.93
   0.41600       6255.49
   0.41700       6266.08
   0.41800       6276.25
   0.41900       6286.01
   0.42000       6295.87
   0.42100       6305.71
   0.42200       6315.57
   0.42300       6325.38
   0.42400       6335.16
   0.42500       6344.97
   0.42600       6354.73
   0.42700       6364.37
   0.42800       6373.97
   0.42900       6383.56
   0.43000       6393.19
   0.43100       6402.39
   0.43200       6410.50
   0.43300       6418.03
   0.43400       6425.67
   0.43500       6433.31
   0.43600       6441.03
   0.43700       6448.73
   0.43800       6456.46
   0.43900       6464.20
   0.44000       6471.96
   0.44100       6479.73
   0.44200       6487.52
   0.44300       6495.33
   0.44400       6502.91
   0.44500       6510.04
   0.44600       6517.25
   0.44700       6523.75
   0.44800       6529.77
   0.44900       6536.02
   0.45000       6542.26
   0.45100       6548.55
   0.45200       6554.83
   0.45300       6561.06
   0.45400       6567.26
   0.45500       6573.36
   0.45600       6578.80
   0.45700       6582.32
   0.45800       6585.42
   0.45900       6588.95
   0.46000       6592.50
   0.46100       6596.09
   0.46200       6599.71
   0.46300       6603.37
   0.46400       6607.02
   0.46500       6610.68
   0.46600       6613.78
   0.46700       6616.05
   0.46800       6617.78
   0.46900       6619.52
   0.47000       6621.25
   0.47100       6623.15
   0.47200       6625.07
   0.47300       6626.94
   0.47400       6628.42
   0.47500       6627.34
   0.47600       6624.97
   0.47700       6623.60
   0.47800       6622.05
   0.47900       6620.83
   0.48000       6619.61
   0.48100       6618.37
   0.48200       6616.42
   0.48300       6612.72
   0.48400       6608.84
   0.48500       6605.28
   0.48600       6601.87
   0.48700       6598.57
   0.48800       6594.66
   0.48900       6587.60
   0.49000       6579.14
   0.49100       6571.76
   0.49200       6564.54
   0.49300       6557.44
   0.49400       6549.66
   0.49500       6539.89
   0.49600       6529.35
   0.49700       6519.68
   0.49800       6510.10
   0.49900       6499.15
   0.50000       6484.67
   0.50100       6469.20
   0.50200       6454.92
   0.50300       6440.85
   0.50400       6424.24
   0.50500       6405.82
   0.50600       6388.38
   0.50700       6370.49
   0.50800       6347.49
   0.50900       6321.95
   0.51000       6297.23
   0.51100       6268.80
   0.51200       6238.69
   0.51300       6191.66
   0.51345       6025.97
   0.51354       5976.30