File: 4. Notched tensile specimen/0.5fx-t.txt
	0	    0
   0.10000E-02   15.8814
   0.20000E-02   31.7627
   0.30000E-02   47.6441
   0.40000E-02   63.5254
   0.50000E-02   79.4068
   0.60000E-02   95.2882
   0.70000E-02   111.170
   0.80000E-02   127.051
   0.90000E-02   142.932
   0.10000E-01   158.814
   0.11000E-01   174.695
   0.12000E-01   190.576
   0.13000E-01   206.458
   0.14000E-01   222.339
   0.15000E-01   238.220
   0.16000E-01   254.102
   0.17000E-01   269.983
   0.18000E-01   285.864
   0.19000E-01   301.746
   0.20000E-01   317.627
   0.21000E-01   333.509
   0.22000E-01   349.390
   0.23000E-01   365.271
   0.24000E-01   381.153
   0.25000E-01   397.034
   0.26000E-01   412.915
   0.27000E-01   428.797
   0.28000E-01   444.678
   0.29000E-01   460.559
   0.30000E-01   476.441
   0.31000E-01   492.322
   0.32000E-01   508.204
   0.33000E-01   524.085
   0.34000E-01   539.966
   0.35000E-01   555.848
   0.36000E-01   571.729
   0.37000E-01   587.610
   0.38000E-01   603.492
   0.39000E-01   619.373
   0.40000E-01   635.254
   0.41000E-01   651.136
   0.42000E-01   667.017
   0.43000E-01   682.899
   0.44000E-01   698.780
   0.45000E-01   714.661
   0.46000E-01   730.543
   0.47000E-01   746.424
   0.48000E-01   762.305
   0.49000E-01   778.187
   0.50000E-01   794.068
   0.51000E-01   809.949
   0.52000E-01   825.831
   0.53000E-01   841.712
   0.54000E-01   857.593
   0.55000E-01   873.475
   0.56000E-01   889.356
   0.57000E-01   905.238
   0.58000E-01   921.119
   0.59000E-01   937.000
   0.60000E-01   952.882
   0.61000E-01   968.763
   0.62000E-01   984.644
   0.63000E-01   1000.53
   0.64000E-01   1016.41
   0.65000E-01   1032.29
   0.66000E-01   1048.17
   0.67000E-01   1064.05
   0.68000E-01   1079.93
   0.69000E-01   1095.81
   0.70000E-01   1111.70
   0.71000E-01   1127.58
   0.72000E-01   1143.46
   0.73000E-01   1159.34
   0.74000E-01   1175.22
   0.75000E-01   1191.10
   0.76000E-01   1206.98
   0.77000E-01   1222.86
   0.78000E-01   1238.75
   0.79000E-01   1254.63
   0.80000E-01   1270.51
   0.81000E-01   1286.39
   0.82000E-01   1302.27
   0.83000E-01   1318.15
   0.84000E-01   1334.03
   0.85000E-01   1349.92
   0.86000E-01   1365.80
   0.87000E-01   1381.68
   0.88000E-01   1397.56
   0.89000E-01   1413.44
   0.90000E-01   1429.32
   0.91000E-01   1445.20
   0.92000E-01   1461.09
   0.93000E-01   1476.97
   0.94000E-01   1492.85
   0.95000E-01   1508.73
   0.96000E-01   1524.61
   0.97000E-01   1540.49
   0.98000E-01   1556.37
   0.99000E-01   1572.25
   0.10000       1588.14
   0.10100       1604.02
   0.10200       1619.90
   0.10300       1635.78
   0.10400       1651.66
   0.10500       1667.54
   0.10600       1683.42
   0.10700       1699.31
   0.10800       1715.19
   0.10900       1731.07
   0.11000       1746.95
   0.11100       1762.83
   0.11200       1778.71
   0.11300       1794.59
   0.11400       1810.48
   0.11500       1826.36
   0.11600       1842.24
   0.11700       1858.12
   0.11800       1874.00
   0.11900       1889.88
   0.12000       1905.76
   0.12100       1921.64
   0.12200       1937.53
   0.12300       1953.41
   0.12400       1969.29
   0.12500       1985.17
   0.12600       2001.05
   0.12700       2016.93
   0.12800       2032.81
   0.12900       2048.70
   0.13000       2064.58
   0.13100       2080.46
   0.13200       2096.34
   0.13300       2112.22
   0.13400       2128.10
   0.13500       2143.98
   0.13600       2159.87
   0.13700       2175.75
   0.13800       2191.63
   0.13900       2207.51
   0.14000       2223.39
   0.14100       2239.27
   0.14200       2255.15
   0.14300       2271.03
   0.14400       2286.92
   0.14500       2302.80
   0.14600       2318.68
   0.14700       2334.56
   0.14800       2350.44
   0.14900       2366.32
   0.15000       2382.20
   0.15100       2398.09
   0.15200       2413.97
   0.15300       2429.85
   0.15400       2445.73
   0.15500       2461.61
   0.15600       2477.49
   0.15700       2493.37
   0.15800       2509.26
   0.15900       2525.14
   0.16000       2541.02
   0.16100       2556.90
   0.16200       2572.78
   0.16300       2588.66
   0.16400       2604.54
   0.16500       2620.42
   0.16600       2636.28
   0.16700       2652.08
   0.16800       2667.89
   0.16900       2683.70
   0.17000       2699.43
   0.17100       2715.07
   0.17200       2730.70
   0.17300       2746.34
   0.17400       2761.98
   0.17500       2777.62
   0.17600       2793.26
   0.17700       2808.90
   0.17800       2824.54
   0.17900       2840.18
   0.18000       2855.82
   0.18100       2871.46
   0.18200       2887.10
   0.18300       2902.74
   0.18400       2918.38
   0.18500       2934.02
   0.18600       2949.66
   0.18700       2965.30
   0.18800       2980.94
   0.18900       2996.58
   0.19000       3012.22
   0.19100       3027.86
   0.19200       3043.50
   0.19300       3059.13
   0.19400       3074.77
   0.19500       3090.41
   0.19600       3106.05
   0.19700       3121.69
   0.19800       3137.33
   0.19900       3152.97
   0.20000       3168.61
   0.20100       3184.25
   0.20200       3199.89
   0.20300       3215.53
   0.20400       3231.16
   0.20500       3246.80
   0.20600       3262.44
   0.20700       3278.08
   0.20800       3293.72
   0.20900       3309.36
   0.21000       3325.00
   0.21100       3340.64
   0.21200       3356.28
   0.21300       3371.92
   0.21400       3387.55
   0.21500       3403.19
   0.21600       3418.83
   0.21700       3434.47
   0.21800       3450.11
   0.21900       3465.75
   0.22000       3481.39
   0.22100       3497.03
   0.22200       3512.66
   0.22300       3528.30
   0.22400       3543.89
   0.22500       3559.44
   0.22600       3574.99
   0.22700       3590.54
   0.22800       3606.10
   0.22900       3621.65
   0.23000       3637.20
   0.23100       3652.75
   0.23200       3668.20
   0.23300       3683.60
   0.23400       3698.98
   0.23500       3714.37
   0.23600       3729.77
   0.23700       3745.16
   0.23800       3760.56
   0.23900       3775.95
   0.24000       3791.35
   0.24100       3806.74
   0.24200       3822.14
   0.24300       3837.53
   0.24400       3852.93
   0.24500       3868.32
   0.24600       3883.72
   0.24700       3899.11
   0.24800       3914.51
   0.24900       3929.91
   0.25000       3945.30
   0.25100       3960.70
   0.25200       3976.08
   0.25300       3991.44
   0.25400       4006.81
   0.25500       4022.18
   0.25600       4037.54
   0.25700       4052.91
   0.25800       4068.28
   0.25900       4083.64
   0.26000       4099.01
   0.26100       4114.38
   0.26200       4129.74
   0.26300       4145.11
   0.26400       4160.48
   0.26500       4175.71
   0.26600       4190.89
   0.26700       4205.87
   0.26800       4220.82
   0.26900       4235.78
   0.27000       4250.74
   0.27100       4265.71
   0.27200       4280.67
   0.27300       4295.63
   0.27400       4310.60
   0.27500       4325.56
   0.27600       4340.53
   0.27700       4355.49
   0.27800       4370.45
   0.27900       4385.42
   0.28000       4400.38
   0.28100       4415.34
   0.28200       4430.31
   0.28300       4445.27
   0.28400       4460.24
   0.28500       4475.20
   0.28600       4490.17
   0.28700       4505.13
   0.28800       4520.09
   0.28900       4535.06
   0.29000       4550.02
   0.29100       4564.99
   0.29200       4579.95
   0.29300       4594.86
   0.29400       4609.69
   0.29500       4624.53
   0.29600       4639.36
   0.29700       4654.04
   0.29800       4668.63
   0.29900       4683.24
   0.30000       4697.86
   0.30100       4712.47
   0.30200       4727.09
   0.30300       4741.70
   0.30400       4756.32
   0.30500       4770.94
   0.30600       4785.55
   0.30700       4800.17
   0.30800       4814.78
   0.30900       4829.38
   0.31000       4843.98
   0.31100       4858.59
   0.31200       4873.19
   0.31300       4887.78
   0.31400       4902.34
   0.31500       4916.91
   0.31600       4931.34
   0.31700       4945.42
   0.31800       4959.47
   0.31900       4973.49
   0.32000       4987.52
   0.32100       5001.56
   0.32200       5015.59
   0.32300       5029.63
   0.32400       5043.66
   0.32500       5057.70
   0.32600       5071.73
   0.32700       5085.77
   0.32800       5099.81
   0.32900       5113.85
   0.33000       5127.89
   0.33100       5141.93
   0.33200       5155.97
   0.33300       5170.01
   0.33400       5184.05
   0.33500       5197.98
   0.33600       5211.85
   0.33700       5225.62
   0.33800       5239.21
   0.33900       5252.80
   0.34000       5266.38
   0.34100       5279.97
   0.34200       5293.56
   0.34300       5307.15
   0.34400       5320.75
   0.34500       5334.34
   0.34600       5347.94
   0.34700       5361.53
   0.34800       5375.13
   0.34900       5388.71
   0.35000       5402.25
   0.35100       5415.61
   0.35200       5428.44
   0.35300       5441.22
   0.35400       5454.06
   0.35500       5466.91
   0.35600       5479.76
   0.35700       5492.61
   0.35800       5505.47
   0.35900       5518.33
   0.36000       5531.19
   0.36100       5544.05
   0.36200       5556.92
   0.36300       5569.78
   0.36400       5582.66
   0.36500       5595.39
   0.36600       5608.01
   0.36700       5620.33
   0.36800       5632.60
   0.36900       5644.90
   0.37000       5657.20
   0.37100       5669.51
   0.37200       5681.83
   0.37300       5694.15
   0.37400       5706.47
   0.37500       5718.80
   0.37600       5731.12
   0.37700       5743.00
   0.37800       5754.38
   0.37900       5765.71
   0.38000       5777.09
   0.38100       5788.49
   0.38200       5799.89
   0.38300       5811.30
   0.38400       5822.72
   0.38500       5834.14
   0.38600       5845.57
   0.38700       5857.01
   0.38800       5868.24
   0.38900       5879.11
   0.39000       5889.81
   0.39100       5900.54
   0.39200       5911.29
   0.39300       5922.05
   0.39400       5932.82
   0.39500       5943.60
   0.39600       5954.39
   0.39700       5964.87
   0.39800       5974.53
   0.39900       5984.07
   0.40000       5993.70
   0.40100       6003.36
   0.40200       6013.03
   0.40300       6022.72
   0.40400       6032.42
   0.40500       6042.15
   0.40600       6051.63
   0.40700       6060.54
   0.40800       6069.36
   0.40900       6078.25
   0.41000       6087.16
   0.41100       6096.10
   0.41200       6105.06
   0.41300       6113.93
   0.41400       6121.57
   0.41500       6129.00
   0.41600       6136.57
   0.41700       6144.19
   0.41800       6151.84
   0.41900       6159.52
   0.42000       6167.16
   0.42100       6174.21
   0.42200       6180.87
   0.42300       6187.55
   0.42400       6194.32
   0.42500       6201.12
   0.42600       6207.97
   0.42700       6213.55
   0.42800       6218.63
   0.42900       6223.77
   0.43000       6229.03
   0.43100       6234.36
   0.43200       6239.69
   0.43300       6244.27
   0.43400       6248.40
   0.43500       6252.61
   0.43600       6256.93
   0.43700       6261.33
   0.43800       6264.40
   0.43900       6266.71
   0.44000       6269.13
   0.44100       6271.73
   0.44200       6274.43
   0.44300       6276.30
   0.44400       6277.58
   0.44500       6278.96
   0.44600       6280.52
   0.44700       6281.39
   0.44800       6280.71
   0.44900       6279.94
   0.45000       6279.50
   0.45100       6279.06
   0.45200       6277.30
   0.45300       6275.35
   0.45400       6273.73
   0.45500       6271.37
   0.45600       6267.21
   0.45700       6263.02
   0.45800       6259.26
   0.45900       6254.43
   0.46000       6248.93
   0.46100       6243.71
   0.46200       6237.45
   0.46300       6229.40
   0.46400       6221.49
   0.46500       6213.48
   0.46600       6204.08
   0.46700       6194.79
   0.46800       6184.46
   0.46900       6172.14
   0.47000       6160.12
   0.47100       6146.89
   0.47200       6133.08
   0.47300       6119.05
   0.47400       6102.02
   0.47500       6085.07
   0.47600       6066.68
   0.47700       6048.08
   0.47800       6027.25
   0.47900       6004.83
   0.48000       5981.27
   0.48100       5957.02
   0.48200       5929.88
   0.48300       5901.30
   0.48400       5870.04
   0.48500       5837.19
   0.48600       5800.68
   0.48700       5760.27
   0.48800       5714.71
   0.48900       5661.78
   0.49000       5585.37
   0.49100       5499.02
   0.49111       5489.30